File: Yapped/bin/x64/Release/res/GR/Data/Great-Rune/Magic.csv
Row ID;Row Name;Disable Param - Network Test;Dialog Message ID;Ignore Usage Restriction - SpEffect ID;Sort ID;Requirement: ARC;AI Interrupt Type;FP Consumption - Default;Stamina Consumption - Default;Icon ID;Behavior ID;Material Item ID;Replace Magic ID;Number of Uses;Reference Category [1];Dexterity over Start Value;Reference Category [2];Slot Usage;Requirement: INT;Requirement: FTH;Casting Speed - DEX Start Range;Casting Speed - DEX End Range;Magic School Type;Reference Category [3];SpEffect Category;Animation Category;Open Menu Type;Reference Category [4];Has SpEffect Type;Replace Category;Use Limit Category;Vow Type [0];Vow Type [1];Vow Type [2];Vow Type [3];Vow Type [4];Vow Type [5];Vow Type [6];Vow Type [7];Allow in Multiplayer;Allow only in Multiplayer;Is Weapon Enchantment;Is Shield Enchantment;Enable Live;Enable Gray;Enable White;Enable Black;Disable Offline;Cast Resonance Magic;Is Toughness Perfomed if Poise is Initial Value;Is Blocked by Warp Forbidden Effect;Usable while Riding;Not Usable while Riding;Usable in No Attack Region;Blank;Vow Type [8];Vow Type [9];Vow Type [10];Vow Type [11];Vow Type [12];Vow Type [13];Vow Type [14];Vow Type [15];SFX ID - Cast;SFX ID - Fire;SFX ID - Effect;Toughness Correction;Replacement Status Type;Replacement Status [1];Replacement Status [2];Replacement Status [3];Replacement Status [4];Reference Category [5];Poise Consumption;Replacement Magic ID [1];Replacement Magic ID [2];Replacement Magic ID [3];Replacement Magic ID [4];FP Consumption - Charged;Stamina Consumption - Charged;Create Limit Group ID;Reference Category [6];Conditional Weapon Effect 1;Conditional Weapon Effect 2;Reference Category [7];Reference Category [8];Reference Category [9];Reference Category [10];Reference ID [1];Reference ID [2];Reference ID [3];AI Usage Judgment ID;Reference ID [4];Reference ID [5];Reference ID [6];Reference ID [7];Reference ID [8];Reference ID [9];Reference ID [10];Consumption Type [1];Consumption Type [2];Consumption Type [3];Consumption Type [4];Consumption Type [5];Consumption Type [6];Consumption Type [7];Consumption Type [8];Consumption Type [9];Consumption Type [10];FP Consumption Loop - For Menu Display
4000;[Sorcery] Glintstone Pebble;False;0;-1;4000;0;0;7;20;4000;0;-1;-1;-1;1;99;1;1;10;0;10;70;0;0;3;1;0;0;0;0;0;True;True;True;True;True;True;True;True;True;False;False;False;True;True;True;True;False;False;False;False;True;False;False;False;True;True;True;True;True;True;True;True;523000;523001;510010;0;3;-1;-1;-1;-1;0;0;-1;-1;-1;-1;0;0;0;0;0;0;0;0;0;0;10400000;10400099;-1;10000100;-1;-1;-1;-1;-1;-1;-1;0;2;0;0;0;0;0;0;0;0;-1
4001;[Sorcery] Great Glintstone Shard;True;0;-1;4000;0;0;12;26;4001;0;-1;-1;-1;1;99;1;1;16;0;10;70;0;0;3;1;0;0;0;0;0;True;True;True;True;True;True;True;True;True;False;False;False;True;True;True;True;False;False;False;False;True;False;False;False;True;True;True;True;True;True;True;True;523000;523001;510020;0;3;-1;-1;-1;-1;0;0;-1;-1;-1;-1;0;0;0;0;0;0;0;0;0;0;10400100;10400199;-1;10000100;-1;-1;-1;-1;-1;-1;-1;0;2;0;0;0;0;0;0;0;0;-1
4010;[Sorcery] Swift Glintstone Shard;True;0;-1;4010;0;0;5;9;4130;0;-1;-1;-1;1;99;0;1;12;0;10;70;0;0;3;79;0;0;0;0;0;True;True;True;True;True;True;True;True;True;False;False;False;True;True;True;True;False;False;False;False;True;False;False;False;True;True;True;True;True;True;True;True;522000;522001;510000;0;3;-1;-1;-1;-1;0;0;-1;-1;-1;-1;0;0;0;0;0;0;0;0;0;0;10401000;-1;-1;10000100;-1;-1;-1;-1;-1;-1;-1;0;0;0;0;0;0;0;0;0;0;-1
4020;[Sorcery] Glintstone Cometshard;True;0;-1;4020;0;0;19;30;4006;0;-1;-1;-1;1;99;1;1;36;0;10;70;0;0;3;2;0;0;0;0;0;True;True;True;True;True;True;True;True;True;False;False;False;True;True;True;True;False;False;False;False;True;False;False;False;True;True;True;True;True;True;True;True;523060;523061;523064;0;3;-1;-1;-1;-1;0;0;-1;-1;-1;-1;19;39;0;0;6;0;0;0;0;0;10402000;10402050;-1;10000200;-1;-1;-1;-1;-1;-1;-1;0;1;0;0;0;0;0;0;0;0;-1
4021;[Sorcery] Comet;True;0;-1;4021;0;0;26;35;4007;0;-1;-1;-1;1;99;1;1;52;0;10;70;0;0;3;2;0;0;0;0;0;True;True;True;True;True;True;True;True;True;False;False;False;True;True;True;True;False;False;False;False;True;False;False;False;True;True;True;True;True;True;True;True;523070;523071;523064;0;3;-1;-1;-1;-1;0;0;-1;-1;-1;-1;26;46;0;0;6;0;0;0;0;0;10402100;10402150;-1;10000200;-1;-1;-1;-1;-1;-1;-1;0;1;0;0;0;0;0;0;0;0;-1
4030;[Sorcery] Shard Spiral;True;0;-1;4030;0;0;14;28;4007;0;-1;-1;-1;1;99;1;1;27;0;10;70;0;0;3;2;0;0;0;0;0;True;True;True;True;True;True;True;True;True;False;False;False;True;True;True;True;False;False;False;False;True;False;False;False;True;True;True;True;True;True;True;True;523070;523071;523064;0;3;-1;-1;-1;-1;0;0;-1;-1;-1;-1;14;36;0;0;0;0;0;0;0;0;10403000;10403050;-1;10000000;-1;-1;-1;-1;-1;-1;-1;0;1;0;0;0;0;0;0;0;0;-1
4040;[Sorcery] Glintstone Stars;False;0;-1;4090;0;0;14;21;4060;0;-1;-1;-1;1;99;1;1;12;0;10;70;0;1;3;107;0;0;0;0;0;True;True;True;True;True;True;True;True;True;False;False;False;True;True;True;True;False;False;False;False;True;False;False;False;True;True;True;True;True;True;True;True;523850;523851;523856;0;3;-1;-1;-1;-1;0;0;-1;-1;-1;-1;14;27;0;0;7;0;0;0;0;0;10404000;10404050;10404099;10000200;-1;-1;-1;-1;-1;-1;-1;0;1;2;0;0;0;0;0;0;0;-1
4050;[Sorcery] Star Shower;True;0;-1;4090;0;0;23;26;4060;0;-1;-1;-1;1;99;1;1;24;0;10;70;0;1;3;107;0;0;0;0;0;True;True;True;True;True;True;True;True;True;False;False;False;True;True;True;True;False;False;False;False;True;False;False;False;True;True;True;True;True;True;True;True;523850;523851;523859;0;3;-1;-1;-1;-1;0;0;-1;-1;-1;-1;23;34;0;0;7;0;0;0;0;0;10405000;10405050;10404099;10000200;-1;-1;-1;-1;-1;-1;-1;0;1;2;0;0;0;0;0;0;0;-1
4060;[Sorcery] Crystal Barrage;True;0;-1;4080;0;0;14;26;4059;0;-1;-1;-1;1;99;1;1;23;0;10;70;0;1;3;4;0;1;0;0;0;True;True;True;True;True;True;True;True;True;False;False;False;True;True;True;True;False;False;False;False;True;False;False;False;True;True;True;True;True;True;True;True;523720;523721;-1;0;3;-1;-1;-1;-1;0;0;-1;-1;-1;-1;2;0;0;0;0;0;0;0;0;0;10406000;10999999;10406099;10000200;10406001;-1;-1;-1;-1;-1;-1;2;0;1;2;0;0;0;0;0;0;2
4070;[Sorcery] Glintstone Arc;False;0;-1;4000;0;0;10;18;4000;0;-1;-1;-1;1;99;1;1;13;0;10;70;0;0;3;16;0;0;0;0;0;True;True;True;True;True;True;True;True;True;False;False;False;True;True;True;True;False;False;False;False;True;False;False;False;True;True;True;True;True;True;True;True;530150;530151;-1;0;3;-1;-1;-1;-1;0;0;-1;-1;-1;-1;0;0;0;0;0;0;0;0;0;0;10407000;10407099;-1;10000100;-1;-1;-1;-1;-1;-1;-1;0;2;0;0;0;0;0;0;0;0;-1
4080;[Sorcery] Cannon of Haima;True;0;-1;4000;0;0;45;42;4000;0;-1;-1;-1;1;99;0;1;25;0;10;70;0;0;3;92;0;1;0;0;0;True;True;True;True;True;True;True;True;True;False;False;False;True;True;True;True;False;False;False;False;True;False;False;False;True;True;True;True;True;True;True;True;-1;-1;-1;0;3;-1;-1;-1;-1;0;0;-1;-1;-1;-1;45;55;0;0;0;0;0;0;0;0;10408000;-1;-1;10000000;10408050;-1;-1;-1;-1;-1;-1;0;0;0;1;0;0;0;0;0;0;-1
4090;[Sorcery] Crystal Burst;True;0;-1;4070;0;0;14;9;4000;0;-1;-1;-1;1;99;1;1;18;0;10;70;0;1;3;113;0;1;0;0;0;True;True;True;True;True;True;True;True;True;False;False;False;True;True;True;True;False;False;False;False;True;False;False;False;True;True;True;True;True;True;True;True;523930;523931;523934;0;3;-1;-1;-1;-1;1;0;-1;-1;-1;-1;14;12;0;1;0;0;0;0;0;0;10409000;10409001;10409002;10000000;10409050;10409051;10409052;-1;-1;-1;-1;0;2;2;1;2;2;0;0;0;0;-1
4100;[Sorcery] Shatter Earth;True;0;-1;4200;0;0;12;22;4000;0;-1;-1;-1;1;99;1;1;15;0;10;70;0;1;3;56;0;0;0;0;0;True;True;True;True;True;True;True;True;True;False;False;False;True;True;True;True;False;False;False;False;False;False;False;False;True;True;True;True;True;True;True;True;523740;523741;523742;0;3;-1;-1;-1;-1;0;0;-1;-1;-1;-1;0;0;0;0;4;0;0;0;0;0;10410000;10410001;10410002;12000030;41003;41004;-1;-1;-1;-1;-1;0;0;2;2;2;0;0;0;0;0;-1
4110;[Sorcery] Rock Blaster;True;0;-1;4200;0;0;25;35;4000;0;-1;-1;-1;1;99;1;1;21;0;10;70;0;1;3;57;0;1;0;0;0;True;True;True;True;True;True;True;True;True;False;False;False;True;True;True;True;False;False;False;False;False;False;False;False;True;True;True;True;True;True;True;True;523740;523741;-1;0;3;-1;-1;-1;-1;1;0;-1;-1;-1;-1;5;0;0;1;4;0;1;1;0;0;10411010;10411000;10411012;12000030;10999999;10411010;10411012;10411014;10411014;-1;-1;1;2;1;0;2;2;1;2;0;0;5
4120;[Sorcery] Gavel of Haima;True;0;-1;4200;0;0;25;46;4061;0;-1;-1;-1;0;99;0;1;25;0;10;70;0;1;3;78;0;1;0;0;0;True;True;True;True;True;True;True;True;True;False;False;False;True;True;True;True;False;False;False;False;False;False;False;False;True;True;True;True;True;True;True;True;523770;523771;523772;0;3;-1;-1;-1;-1;0;0;-1;-1;-1;-1;0;0;0;0;0;0;0;0;0;0;41200;41201;10412000;12000000;10412001;-1;-1;-1;-1;-1;-1;0;0;2;2;0;0;0;0;0;0;-1
4130;[Sorcery] Terra Magicus;True;0;-1;4640;0;0;20;12;4000;0;-1;-1;-1;1;99;0;1;20;0;10;70;0;0;3;13;0;0;0;0;0;True;True;True;True;True;True;True;True;True;False;False;False;True;True;True;True;False;False;False;False;True;False;True;False;True;True;True;True;True;True;True;True;523810;523811;-1;0;3;-1;-1;-1;-1;0;0;-1;-1;-1;-1;0;0;0;0;0;0;0;0;0;0;10413000;-1;-1;30000000;-1;-1;-1;-1;-1;-1;-1;0;0;0;0;0;0;0;0;0;0;-1
4140;[Sorcery] Starlight;True;0;-1;4630;0;0;12;5;4000;0;-1;-1;-1;2;99;0;1;15;0;10;70;0;0;3;13;0;0;0;0;0;True;True;True;True;True;True;True;True;True;False;False;False;True;True;True;True;False;False;False;False;True;False;True;False;True;True;True;True;True;True;True;True;523500;523501;-1;0;3;-1;-1;-1;-1;0;0;-1;-1;-1;-1;0;0;0;0;0;0;0;0;0;0;1414000;-1;-1;-1;-1;-1;-1;-1;-1;-1;-1;0;0;0;0;0;0;0;0;0;0;-1
4200;[Sorcery] Comet Azur;True;0;-1;4110;0;0;40;34;4104;0;-1;-1;-1;1;99;1;3;60;0;10;70;0;1;3;7;0;1;0;0;0;True;True;True;True;True;True;True;True;True;False;False;False;True;True;True;True;False;False;False;False;True;False;False;False;True;True;True;True;True;True;True;True;526250;-1;526255;0;3;-1;-1;-1;-1;1;0;-1;-1;-1;-1;10;0;0;1;14;0;0;0;0;0;10420000;10420002;10420003;10000200;10420004;10420002;10420001;-1;-1;-1;-1;2;1;2;0;2;2;0;0;0;0;10
4210;[Sorcery] Founding Rain of Stars;True;0;-1;4100;0;0;32;37;4060;0;-1;-1;-1;1;99;1;2;52;0;10;70;0;1;3;124;0;1;0;0;0;True;True;True;True;True;True;True;True;True;False;False;False;True;True;True;True;False;False;False;False;True;False;False;False;True;True;True;True;True;True;True;True;523820;523821;-1;0;3;-1;-1;-1;-1;0;0;-1;-1;-1;-1;32;48;0;0;0;0;0;0;0;0;10421000;10421050;10421007;11100020;10421057;-1;-1;-1;-1;-1;-1;0;1;2;2;0;0;0;0;0;0;-1
4220;[Sorcery] Stars of Ruin;True;0;-1;4090;0;0;38;33;4060;0;-1;-1;-1;1;99;1;1;43;0;10;70;0;0;3;107;0;1;0;0;0;True;True;True;True;True;True;True;True;True;False;False;False;True;True;True;True;False;False;False;False;True;False;False;False;True;True;True;True;True;True;True;True;523900;523901;-1;0;3;-1;-1;-1;-1;1;0;-1;-1;-1;-1;38;43;0;0;15;0;0;0;0;0;10422000;10422050;-1;10000000;10422098;10422099;-1;-1;-1;-1;-1;0;1;0;2;2;0;0;0;0;0;-1
4300;[Sorcery] Glintblade Phalanx;True;0;-1;4040;0;0;20;12;4004;0;-1;-1;-1;1;99;0;1;22;0;10;70;0;0;3;8;0;0;0;0;0;True;True;True;True;True;True;True;True;True;False;False;False;True;True;True;True;False;False;False;False;True;False;False;False;True;True;True;True;True;True;True;True;523040;523041;-1;0;3;-1;-1;-1;-1;0;0;-1;-1;-1;-1;0;0;0;0;3;0;0;0;0;0;10430000;-1;-1;11100000;-1;-1;-1;-1;-1;-1;-1;0;0;0;0;0;0;0;0;0;0;-1
4301;[Sorcery] Carian Phalanx;True;0;-1;4040;0;0;26;16;4004;0;-1;-1;-1;1;99;0;1;34;0;10;70;0;0;3;8;0;0;0;0;0;True;True;True;True;True;True;True;True;True;False;False;False;True;True;True;True;False;False;False;False;True;False;False;False;True;True;True;True;True;True;True;True;523040;523041;-1;0;3;-1;-1;-1;-1;0;0;-1;-1;-1;-1;0;0;0;0;3;0;0;0;0;0;10430100;-1;-1;11100000;-1;-1;-1;-1;-1;-1;-1;0;0;0;0;0;0;0;0;0;0;-1
4302;[Sorcery] Greatblade Phalanx;True;0;-1;4040;0;0;35;20;4004;0;-1;-1;-1;1;99;0;1;29;0;10;70;0;0;3;95;0;0;0;0;0;True;True;True;True;True;True;True;True;True;False;False;False;True;True;True;True;False;False;False;False;True;False;False;False;True;True;True;True;True;True;True;True;523050;523051;-1;0;3;-1;-1;-1;-1;0;0;-1;-1;-1;-1;0;0;0;0;3;0;0;0;0;0;10430200;-1;-1;11100000;-1;-1;-1;-1;-1;-1;-1;0;0;0;0;0;0;0;0;0;0;-1
4360;[Sorcery] Rennala's Full Moon;True;0;-1;4060;0;0;55;32;4104;0;-1;-1;-1;1;99;0;2;70;0;10;70;0;0;3;6;0;0;0;0;0;True;True;True;True;True;True;True;True;True;False;False;False;True;True;True;True;False;False;False;False;False;False;False;False;True;True;True;True;True;True;True;True;523800;523801;523806;0;3;-1;-1;-1;-1;0;0;-1;-1;-1;-1;0;0;0;0;1;0;0;0;0;0;10436000;-1;-1;10000000;-1;-1;-1;-1;-1;-1;-1;0;0;0;0;0;0;0;0;0;0;-1
4361;[Sorcery] Ranni's Dark Moon;True;0;-1;4060;0;0;62;32;4104;0;-1;-1;-1;1;99;0;2;68;0;10;70;0;0;3;6;0;0;0;0;0;True;True;True;True;True;True;True;True;True;False;False;False;True;True;True;True;False;False;False;False;False;False;False;False;True;True;True;True;True;True;True;True;523860;523861;523866;0;3;-1;-1;-1;-1;0;0;-1;-1;-1;-1;0;0;0;0;1;13;0;0;0;0;10436100;-1;-1;10000000;-1;-1;-1;-1;-1;-1;-1;0;0;0;0;0;0;0;0;0;0;-1
4370;[Sorcery] Magic Downpour;True;0;-1;4100;0;0;20;17;4060;0;-1;-1;-1;1;99;1;1;15;0;10;70;0;0;3;107;0;1;0;0;0;True;True;True;True;True;True;True;True;True;False;False;False;True;True;True;True;False;False;False;False;True;False;False;False;True;True;True;True;True;True;True;True;523730;523731;523739;0;3;-1;-1;-1;-1;1;0;-1;-1;-1;-1;20;22;0;0;0;0;0;0;0;0;10437000;10437050;-1;11100000;10437003;10437053;-1;-1;-1;-1;-1;0;1;0;2;2;0;0;0;0;0;-1
4380;[Sorcery] Loretta's Greatbow;True;0;-1;4120;0;0;28;30;4104;0;-1;-1;-1;1;99;1;1;26;0;10;70;0;0;3;5;0;0;0;0;0;True;True;True;True;True;True;True;True;True;False;False;False;True;True;True;True;False;False;False;False;True;False;False;False;True;True;True;True;True;True;True;True;526250;526264;526269;0;3;-1;-1;-1;-1;1;0;-1;-1;-1;-1;28;39;0;1;0;0;0;0;0;0;10438000;10438000;-1;10000200;-1;10438050;10438050;-1;-1;-1;-1;0;0;0;0;1;1;0;0;0;0;-1
4381;[Sorcery] Loretta's Mastery;True;0;-1;4120;0;0;43;33;4104;0;-1;-1;-1;1;99;1;1;46;0;10;70;0;0;3;5;0;0;0;0;0;True;True;True;True;True;True;True;True;True;False;False;False;True;True;True;True;False;False;False;False;True;False;False;False;True;True;True;True;True;True;True;True;526250;526284;526289;0;3;-1;-1;-1;-1;1;0;-1;-1;-1;-1;43;43;0;1;0;0;0;0;0;0;10438100;10438110;-1;10000000;-1;10438150;10438160;-1;-1;-1;-1;0;0;0;0;1;1;0;0;0;0;-1
4390;[Sorcery] Magic Glintblade;True;0;-1;4100;0;0;12;22;4060;0;-1;-1;-1;1;99;1;1;14;0;10;70;0;1;3;118;0;1;0;0;0;True;True;True;True;True;True;True;True;True;False;False;False;True;True;True;True;False;False;False;False;True;False;False;False;True;True;True;True;True;True;True;True;523090;523091;-1;0;3;-1;-1;-1;-1;0;0;-1;-1;-1;-1;12;29;0;0;3;0;0;0;0;0;10439000;10439002;10439050;10000000;10439052;-1;-1;-1;-1;-1;-1;0;2;1;2;0;0;0;0;0;0;-1
4400;[Sorcery] Glintstone Icecrag;True;0;-1;4000;0;0;12;26;4000;0;-1;-1;-1;1;99;0;1;15;0;10;70;0;0;3;1;0;0;0;0;0;True;True;True;True;True;True;True;True;True;False;False;False;True;True;True;True;False;False;False;False;True;False;False;False;True;True;True;True;True;True;True;True;523030;523031;-1;0;3;-1;-1;-1;-1;0;0;-1;-1;-1;-1;0;0;0;0;13;0;0;0;0;0;10440000;-1;-1;10000000;-1;-1;-1;-1;-1;-1;-1;0;0;0;0;0;0;0;0;0;0;-1
4410;[Sorcery] Zamor Ice Storm;True;0;-1;4400;0;0;22;27;4000;0;-1;-1;-1;0;99;0;1;36;0;10;70;0;0;3;14;0;0;0;0;0;True;True;True;True;True;True;True;True;True;False;False;False;True;True;True;True;False;False;False;False;False;False;False;False;True;True;True;True;True;True;True;True;523870;-1;523875;0;3;-1;-1;-1;-1;0;0;-1;-1;-1;-1;22;35;0;0;13;0;0;0;1;1;-1;-1;-1;12000000;-1;-1;-1;-1;-1;10441000;10441050;0;0;0;0;0;0;0;0;0;1;-1
4420;[Sorcery] Freezing Mist;True;0;-1;4000;0;0;20;13;4000;0;-1;-1;-1;1;99;0;1;21;0;10;70;0;0;3;113;0;1;0;0;0;True;True;True;True;True;True;True;True;True;False;False;False;True;True;True;True;False;False;False;False;True;False;False;False;True;True;True;True;True;True;True;True;523880;523881;523875;0;3;-1;-1;-1;-1;0;0;-1;-1;-1;-1;20;17;0;0;13;0;0;0;0;0;10442000;-1;-1;11000000;10442050;-1;-1;-1;-1;-1;-1;0;0;0;1;0;0;0;0;0;0;-1
4430;[Sorcery] Carian Greatsword;True;0;-1;4200;0;0;14;22;4061;0;-1;-1;-1;0;99;0;1;24;0;10;70;0;0;3;9;0;0;0;0;0;True;True;True;True;True;True;True;True;True;False;False;False;True;True;True;True;False;False;False;False;True;False;False;False;True;True;True;True;True;True;True;True;523740;523741;523742;0;3;-1;-1;-1;-1;0;0;-1;-1;-1;-1;0;0;0;0;2;0;0;0;0;0;44300;44301;44305;12000000;44306;44307;44308;-1;-1;-1;-1;0;0;0;0;0;0;0;0;0;0;-1
4431;[Sorcery] Adula's Moonblade;True;0;-1;4000;0;0;26;22;4000;0;-1;-1;-1;0;99;0;1;32;0;10;70;0;0;3;9;0;0;0;0;0;True;True;True;True;True;True;True;True;True;False;False;False;True;True;True;True;False;False;False;False;True;False;False;False;True;True;True;True;True;True;True;True;523890;523891;523892;0;3;-1;-1;-1;-1;0;0;-1;-1;-1;-1;0;0;0;0;2;13;1;1;1;1;44310;44311;44315;12000000;44316;44317;44318;10443100;10443110;10443120;10443130;0;0;0;0;0;0;2;2;2;2;-1
4440;[Sorcery] Carian Slicer;True;0;-1;4210;0;0;4;12;4102;0;-1;-1;-1;0;99;0;1;14;0;10;70;0;0;3;80;0;0;0;0;0;True;True;True;True;True;True;True;True;True;False;False;False;True;True;True;True;False;False;False;False;True;False;False;False;True;True;True;True;True;True;True;True;523750;523751;523752;0;3;-1;-1;-1;-1;0;0;-1;-1;-1;-1;0;0;0;0;2;0;0;0;0;0;44400;44401;44405;12000130;44406;44407;44408;-1;-1;-1;-1;0;0;0;0;0;0;0;0;0;0;-1
4450;[Sorcery] Carian Piercer;False;0;-1;4200;0;0;19;25;4061;0;-1;-1;-1;0;99;0;1;27;0;10;70;0;0;3;10;0;0;0;0;0;True;True;True;True;True;True;True;True;True;False;False;False;True;True;True;True;False;False;False;False;True;False;False;False;True;True;True;True;True;True;True;True;523740;523741;523742;0;3;-1;-1;-1;-1;0;0;-1;-1;-1;-1;19;33;0;0;2;0;0;0;0;0;44500;44501;44505;11000021;44506;-1;-1;-1;-1;-1;-1;0;0;1;1;0;0;0;0;0;0;-1
4460;[Sorcery] Scholar's Armament;True;0;-1;4600;0;0;25;10;4000;0;-1;-1;-1;2;99;0;1;12;0;10;70;0;0;3;11;0;0;0;0;0;True;True;True;True;True;True;True;True;True;False;True;False;True;True;True;True;False;False;False;False;False;False;True;False;True;True;True;True;True;True;True;True;523100;523101;-1;0;3;-1;-1;-1;-1;0;0;-1;-1;-1;-1;0;0;0;0;0;0;0;0;0;0;1446000;-1;-1;30010000;-1;-1;-1;-1;-1;-1;-1;0;0;0;0;0;0;0;0;0;0;-1
4470;[Sorcery] Scholar's Shield;True;0;-1;4620;0;0;30;10;4000;0;-1;-1;-1;2;99;0;1;12;0;10;70;0;0;3;12;0;0;0;0;0;True;True;True;True;True;True;True;True;True;False;False;True;True;True;True;True;False;False;False;False;False;False;True;False;True;True;True;True;True;True;True;True;523300;523301;-1;0;3;-1;-1;-1;-1;0;0;-1;-1;-1;-1;0;0;0;0;0;0;0;0;0;0;1447000;-1;-1;30020000;-1;-1;-1;-1;-1;-1;-1;0;0;0;0;0;0;0;0;0;0;-1
4480;[Sorcery] Lucidity;True;0;-1;4630;0;0;10;10;4000;0;-1;-1;-1;1;99;0;1;17;0;10;70;0;0;3;13;0;0;0;0;0;True;True;True;True;True;True;True;True;True;False;False;False;True;True;True;True;False;False;False;False;True;False;True;False;True;True;True;True;True;True;True;True;523150;523151;523153;0;3;-1;-1;-1;-1;0;0;-1;-1;-1;-1;0;0;0;0;0;0;0;0;0;0;10448000;-1;-1;20000000;-1;-1;-1;-1;-1;-1;-1;0;0;0;0;0;0;0;0;0;0;-1
4490;[Sorcery] Frozen Armament;True;0;-1;4600;0;0;20;10;4000;0;-1;-1;-1;2;99;0;1;15;0;10;70;0;0;3;11;0;0;0;0;0;True;True;True;True;True;True;True;True;True;False;True;False;True;True;True;True;False;False;False;False;False;False;True;False;True;True;True;True;True;True;True;True;523130;523131;-1;0;3;-1;-1;-1;-1;0;0;-1;-1;-1;-1;0;0;0;0;13;0;0;0;0;0;1449000;-1;-1;30010000;-1;-1;-1;-1;-1;-1;-1;0;0;0;0;0;0;0;0;0;0;-1
4500;[Sorcery] Shattering Crystal;True;0;-1;4070;0;0;32;35;4000;0;-1;-1;-1;1;99;1;1;38;0;10;70;0;1;3;113;0;1;0;0;0;True;True;True;True;True;True;True;True;True;False;False;False;True;True;True;True;False;False;False;False;True;False;False;False;True;True;True;True;True;True;True;True;523190;523191;523194;0;3;-1;-1;-1;-1;1;0;-1;-1;-1;-1;32;46;0;1;5;0;0;0;0;0;10450000;10450001;10450002;11000000;10450050;10450051;10450052;-1;-1;-1;-1;0;2;2;1;2;2;0;0;0;0;-1
4510;[Sorcery] Crystal Release;True;0;-1;4101;0;0;38;26;4060;0;-1;-1;-1;1;99;1;1;41;0;10;70;0;1;3;58;0;1;0;0;0;True;True;True;True;True;True;True;True;True;False;False;False;True;True;True;True;False;False;False;False;True;False;False;False;True;True;True;True;True;True;True;True;-1;-1;-1;0;3;-1;-1;-1;-1;0;0;-1;-1;-1;-1;0;0;0;0;5;0;0;0;0;0;10451000;10451010;10451020;12000000;10451000;-1;-1;-1;-1;-1;-1;0;2;2;2;0;0;0;0;0;0;-1
4520;[Sorcery] Crystal Torrent;True;0;-1;4110;0;0;24;30;4104;0;-1;-1;-1;1;99;1;1;47;0;10;70;0;0;3;7;0;1;0;0;0;True;True;True;True;True;True;True;True;True;False;False;False;True;True;True;True;False;False;False;False;True;False;False;False;True;True;True;True;True;True;True;True;526240;526241;-1;0;3;-1;-1;-1;-1;1;0;-1;-1;-1;-1;6;0;0;1;5;0;0;0;0;0;10452000;10452001;-1;10000000;10999999;10452000;10452002;-1;-1;-1;-1;2;1;0;0;2;2;0;0;0;0;6
4600;[Sorcery] Ambush Shard;True;0;-1;4000;0;0;16;15;4000;0;-1;-1;-1;1;99;0;1;23;0;10;70;0;0;3;83;0;0;0;0;0;True;True;True;True;True;True;True;True;True;False;False;False;True;True;True;True;False;False;False;False;True;False;False;False;True;True;True;True;True;True;True;True;-1;-1;-1;0;3;-1;-1;-1;-1;0;0;-1;-1;-1;-1;0;0;0;0;0;0;0;0;0;0;10460000;-1;-1;10000000;-1;-1;-1;-1;-1;-1;-1;0;0;0;0;0;0;0;0;0;0;-1
4610;[Sorcery] Night Shard;True;0;-1;4010;0;0;7;9;4130;0;-1;-1;-1;1;99;0;1;18;0;10;70;0;0;3;79;0;0;0;0;0;True;True;True;True;True;True;True;True;True;False;False;False;True;True;True;True;False;False;False;False;True;False;False;False;True;True;True;True;True;True;True;True;523240;523241;510300;0;3;-1;-1;-1;-1;0;0;-1;-1;-1;-1;0;0;0;0;12;0;0;0;0;0;10461000;-1;-1;10000000;-1;-1;-1;-1;-1;-1;-1;0;0;0;0;0;0;0;0;0;0;-1
4620;[Sorcery] Night Comet;True;0;-1;4020;0;0;24;30;4006;0;-1;-1;-1;1;99;1;1;38;0;10;70;0;0;3;2;0;0;0;0;0;True;True;True;True;True;True;True;True;True;False;False;False;True;True;True;True;False;False;False;False;True;False;False;False;True;True;True;True;True;True;True;True;523200;523201;523204;0;3;-1;-1;-1;-1;0;0;-1;-1;-1;-1;32;39;0;0;12;0;0;0;0;0;10462000;10462050;-1;10000000;-1;-1;-1;-1;-1;-1;-1;0;1;0;0;0;0;0;0;0;0;-1
4630;[Sorcery] Thops's Barrier;True;0;-1;4040;0;0;7;10;4004;0;-1;-1;-1;1;99;0;1;18;0;10;70;0;0;3;110;0;0;0;0;0;True;True;True;True;True;True;True;True;True;False;False;False;True;True;True;True;False;False;False;False;True;False;False;False;True;True;True;True;True;True;True;True;523210;523211;-1;0;3;-1;-1;-1;-1;0;0;-1;-1;-1;-1;0;0;0;0;0;0;0;0;0;0;10463000;-1;-1;10000000;-1;-1;-1;-1;-1;-1;-1;0;0;0;0;0;0;0;0;0;0;7
4640;[Sorcery] Carian Retaliation;True;0;-1;4640;0;0;8;15;4000;0;-1;-1;-1;1;99;0;1;17;0;10;70;0;0;3;84;0;0;0;0;0;True;True;True;True;True;True;True;True;True;False;False;False;True;True;True;True;False;False;False;False;True;False;False;False;True;True;True;True;True;True;True;True;523500;523501;-1;0;3;-1;-1;34;51;0;0;-1;-1;4641;4642;0;0;0;0;3;0;0;0;0;0;10464000;-1;-1;-1;-1;-1;-1;-1;-1;-1;-1;0;0;0;0;0;0;0;0;0;0;-1
4641;[Sorcery] Carian Retaliation - 1;True;0;-1;4641;0;0;8;15;4000;0;-1;-1;-1;1;99;0;1;17;0;10;70;0;0;3;84;0;0;0;0;0;True;True;True;True;True;True;True;True;True;False;False;False;True;True;True;True;False;False;False;False;True;False;False;False;True;True;True;True;True;True;True;True;523500;523501;-1;0;3;-1;-1;-1;-1;0;0;-1;-1;-1;-1;0;0;0;0;3;0;0;0;0;0;10464010;-1;-1;-1;-1;-1;-1;-1;-1;-1;-1;0;0;0;0;0;0;0;0;0;0;-1
4642;[Sorcery] Carian Retaliation - 2;True;0;-1;4642;0;0;8;15;4000;0;-1;-1;-1;1;99;0;1;17;0;10;70;0;0;3;84;0;0;0;0;0;True;True;True;True;True;True;True;True;True;False;False;False;True;True;True;True;False;False;False;False;True;False;False;False;True;True;True;True;True;True;True;True;523500;523501;-1;0;3;-1;-1;-1;-1;0;0;-1;-1;-1;-1;0;0;0;0;3;0;0;0;0;0;10464020;-1;-1;-1;-1;-1;-1;-1;-1;-1;-1;0;0;0;0;0;0;0;0;0;0;-1
4650;[Sorcery] Eternal Darkness;True;0;-1;4640;0;0;25;15;4000;0;-1;-1;-1;1;99;0;1;35;0;10;70;0;0;3;8;0;0;0;0;0;True;True;True;True;True;True;True;True;True;False;False;False;True;True;True;True;False;False;False;False;True;False;False;False;True;True;True;True;True;True;True;True;523250;523251;-1;0;3;-1;-1;-1;-1;0;0;-1;-1;-1;-1;0;0;0;0;6;0;0;0;0;0;10465000;-1;-1;-1;-1;-1;-1;-1;-1;-1;-1;0;0;0;0;0;0;0;0;0;0;-1
4660;[Sorcery] Unseen Blade;True;0;-1;4000;0;0;18;10;4000;0;-1;-1;-1;2;99;0;1;12;0;10;70;0;0;3;11;0;0;0;0;0;True;True;True;True;True;True;True;True;True;False;True;False;True;True;True;True;False;False;False;False;False;False;True;False;True;True;True;True;True;True;True;True;523400;523401;523402;0;3;-1;-1;-1;-1;0;0;-1;-1;-1;-1;0;0;0;0;12;0;0;0;0;0;1466000;-1;-1;30010000;-1;-1;-1;-1;-1;-1;-1;0;0;0;0;0;0;0;0;0;0;-1
4670;[Sorcery] Unseen Form;True;0;-1;4000;0;0;20;10;4000;0;-1;-1;-1;2;99;2;1;16;0;10;70;0;1;3;109;0;2;0;0;0;True;True;True;True;True;True;True;True;True;False;False;False;True;True;True;True;False;False;False;False;True;False;True;False;True;True;True;True;True;True;True;True;523410;523411;-1;0;3;-1;-1;-1;-1;0;0;-1;-1;-1;-1;0;0;0;0;12;0;0;0;0;0;1467000;1467001;10467001;30000000;1467002;-1;-1;-1;-1;-1;-1;0;2;2;2;0;0;0;0;0;0;-1
4700;[Sorcery] Meteorite;False;0;-1;4420;0;0;30;35;4000;0;-1;-1;-1;1;99;1;1;30;0;10;70;0;1;3;15;0;1;0;0;0;True;True;True;True;True;True;True;True;True;False;False;False;True;True;True;True;False;False;False;False;False;False;False;False;True;True;True;True;True;True;True;True;530120;530121;530124;0;3;-1;-1;-1;-1;1;0;-1;-1;-1;-1;10;0;0;1;11;0;0;0;0;0;10470000;10470005;10470040;11000200;10470010;10470020;10470030;-1;-1;-1;-1;1;1;1;0;2;2;0;0;0;0;10
4701;[Sorcery] Meteorite of Astel;True;0;-1;4000;0;0;60;40;4000;0;-1;-1;-1;1;99;1;2;55;0;10;70;0;1;3;15;0;1;0;0;0;True;True;True;True;True;True;True;True;True;False;False;False;True;True;True;True;False;False;False;False;False;False;False;False;True;True;True;True;True;True;True;True;529990;529991;-1;0;3;-1;-1;-1;-1;1;0;-1;-1;-1;-1;12;0;0;1;11;0;0;0;0;0;10470100;10470110;10470120;11000200;10470150;10470151;10470152;-1;-1;-1;-1;1;1;1;0;2;2;0;0;0;0;12
4710;[Sorcery] Rock Sling;True;0;-1;4430;0;0;18;29;4000;0;-1;-1;-1;1;99;1;1;18;0;10;70;0;1;3;108;0;1;0;0;0;True;True;True;True;True;True;True;True;True;False;False;False;True;True;True;True;False;False;False;False;True;False;False;False;True;True;True;True;True;True;True;True;530130;530131;-1;0;3;-1;-1;-1;-1;1;0;-1;-1;-1;-1;0;0;0;1;11;0;0;0;0;0;10471000;10471001;10471002;11000000;10471050;10471051;10471052;-1;-1;-1;-1;0;2;2;0;2;2;0;0;0;0;-1
4720;[Sorcery] Gravity Well;True;0;-1;4000;0;0;12;20;4000;0;-1;-1;-1;1;99;0;1;17;0;10;70;0;0;3;120;0;0;0;0;0;True;True;True;True;True;True;True;True;True;False;False;False;True;True;True;True;False;False;False;False;False;False;False;False;True;True;True;True;True;True;True;True;529980;529981;529984;0;3;-1;-1;-1;-1;1;0;-1;-1;-1;-1;12;26;0;0;11;0;0;0;0;0;10472000;-1;-1;11000000;-1;10472050;-1;-1;-1;-1;-1;0;0;0;0;1;0;0;0;0;0;-1
4721;[Sorcery] Collapsing Stars;True;0;-1;4000;0;0;18;27;4000;0;-1;-1;-1;1;99;1;1;36;0;10;70;0;0;3;120;0;0;0;0;0;True;True;True;True;True;True;True;True;True;False;False;False;True;True;True;True;False;False;False;False;False;False;False;False;True;True;True;True;True;True;True;True;529970;529971;529974;0;3;-1;-1;-1;-1;1;0;-1;-1;-1;-1;18;35;0;1;11;0;0;0;0;0;10472100;10472101;-1;11000000;-1;10472150;10472151;-1;-1;-1;-1;0;2;0;0;1;2;0;0;0;0;-1
4800;[Sorcery] Magma Shot;True;0;-1;5013;0;0;24;21;4054;0;-1;-1;-1;1;99;1;1;19;10;10;70;0;0;3;117;0;0;0;0;0;True;True;True;True;True;True;True;True;True;False;False;False;True;True;True;True;False;False;False;False;True;False;False;False;True;True;True;True;True;True;True;True;524500;524501;-1;0;0;-1;-1;-1;-1;0;0;-1;-1;-1;-1;24;27;0;0;8;0;0;0;0;0;10480000;10480050;-1;10000000;-1;-1;-1;-1;-1;-1;-1;0;1;0;0;0;0;0;0;0;0;-1
4810;[Sorcery] Gelmir's Fury;True;0;-1;5140;0;0;27;38;4087;0;-1;-1;-1;1;99;1;1;28;15;10;70;0;1;3;102;0;1;0;0;0;True;True;True;True;True;True;True;True;True;False;False;False;True;True;True;True;False;False;False;False;False;False;False;False;True;True;True;True;True;True;True;True;524510;524511;524515;0;0;-1;-1;-1;-1;1;0;-1;-1;-1;-1;3;0;0;1;8;0;0;0;0;0;10481000;10481002;10481004;12000000;10481011;10999999;10481015;-1;-1;-1;-1;2;2;2;2;0;1;0;0;0;0;3
4820;[Sorcery] Roiling Magma;True;0;-1;5150;0;0;32;27;4147;0;-1;-1;-1;1;99;1;1;21;12;10;70;0;0;3;117;0;0;0;0;0;True;True;True;True;True;True;True;True;True;False;False;False;True;True;True;True;False;False;False;False;True;False;False;False;True;True;True;True;True;True;True;True;529100;529101;529102;0;0;-1;-1;-1;-1;0;0;-1;-1;-1;-1;32;35;0;0;8;0;0;0;0;0;10482000;10482050;-1;10000000;-1;-1;-1;-1;-1;-1;-1;0;1;0;0;0;0;0;0;0;0;-1
4830;[Sorcery] Rykard's Rancor;True;0;-1;4090;0;0;35;36;4060;0;-1;-1;-1;1;99;0;2;40;18;10;70;0;0;3;95;0;0;0;0;0;True;True;True;True;True;True;True;True;True;False;False;False;True;True;True;True;False;False;False;False;True;False;False;False;True;True;True;True;True;True;True;True;524495;-1;-1;0;3;-1;-1;-1;-1;0;0;-1;-1;-1;-1;0;0;0;0;8;0;0;0;0;0;10483000;-1;-1;10100000;-1;-1;-1;-1;-1;-1;-1;0;0;0;0;0;0;0;0;0;0;-1
4900;[Sorcery] Briars of Sin;False;0;-1;4200;0;0;9;26;4000;0;-1;-1;-1;1;99;1;1;0;24;10;70;0;1;3;81;0;0;0;0;0;True;True;True;True;True;True;True;True;True;False;False;False;True;True;True;True;False;False;False;False;False;False;False;False;True;True;True;True;True;True;True;True;-1;-1;-1;0;3;-1;-1;-1;-1;0;0;-1;-1;-1;-1;0;0;0;0;9;0;0;0;0;0;10490000;10490001;10490002;12000000;-1;-1;-1;-1;-1;-1;-1;0;0;0;0;0;0;0;0;0;0;-1
4910;[Sorcery] Briars of Punishment;True;0;-1;4200;0;0;13;22;4000;0;-1;-1;-1;1;99;0;1;0;21;10;70;0;0;3;82;0;0;0;0;0;True;True;True;True;True;True;True;True;True;False;False;False;True;True;True;True;False;False;False;False;False;False;False;False;True;True;True;True;True;True;True;True;-1;-1;-1;0;3;-1;-1;-1;-1;0;0;-1;-1;-1;-1;0;0;0;0;9;0;0;0;0;0;10491000;-1;-1;10000000;-1;-1;-1;-1;-1;-1;-1;0;0;0;0;0;0;0;0;0;0;-1
5000;[Sorcery] Rancorcall;True;0;-1;4000;0;0;14;21;4000;0;-1;-1;-1;1;99;1;1;16;14;10;70;0;1;3;103;0;1;0;0;0;True;True;True;True;True;True;True;True;True;False;False;False;True;True;True;True;False;False;False;False;True;False;False;False;True;True;True;True;True;True;True;True;523360;523361;523364;0;3;-1;-1;-1;-1;1;0;-1;-1;-1;-1;14;27;0;1;10;0;1;0;0;0;10500000;10500001;10500002;10000000;10500050;10500051;10500052;10500099;-1;-1;-1;0;2;2;1;2;2;2;0;0;0;-1
5001;[Sorcery] Ancient Death Rancor;True;0;-1;4000;0;0;24;27;4000;0;-1;-1;-1;1;99;1;1;34;24;10;70;0;1;3;103;0;1;0;0;0;True;True;True;True;True;True;True;True;True;False;False;False;True;True;True;True;False;False;False;False;True;False;False;False;True;True;True;True;True;True;True;True;523370;523371;523374;0;3;-1;-1;-1;-1;1;0;-1;-1;-1;-1;24;35;0;1;10;0;1;0;0;0;10500100;10500101;10500102;10000000;10500150;10500151;10500152;10500099;-1;-1;-1;0;2;2;1;2;2;2;0;0;0;-1
5010;[Sorcery] Explosive Ghostflame;True;0;-1;4000;0;0;36;45;4000;0;-1;-1;-1;1;99;1;1;42;30;10;70;0;0;3;115;0;0;0;0;0;True;True;True;True;True;True;True;True;True;False;False;False;True;True;True;True;False;False;False;False;False;False;False;False;True;True;True;True;True;True;True;True;523000;523001;-1;0;3;-1;-1;-1;-1;0;0;-1;-1;-1;-1;0;0;0;0;10;0;0;0;0;0;10501000;10501001;-1;11000000;-1;-1;-1;-1;-1;-1;-1;0;2;0;0;0;0;0;0;0;0;-1
5020;[Sorcery] Fia's Mist;True;0;-1;4000;0;0;25;13;4000;0;-1;-1;-1;1;99;0;1;23;18;10;70;0;0;3;113;0;1;0;0;0;True;True;True;True;True;True;True;True;True;False;False;False;True;True;True;True;False;False;False;False;True;False;False;False;True;True;True;True;True;True;True;True;523350;523351;523354;0;3;-1;-1;-1;-1;0;0;-1;-1;-1;-1;25;17;0;0;10;0;0;0;0;0;10502000;-1;-1;12000000;10502050;-1;-1;-1;-1;-1;-1;0;0;0;1;0;0;0;0;0;0;-1
5030;[Sorcery] Tibia's Summons;True;0;-1;4000;0;0;20;27;4000;0;-1;-1;-1;1;99;1;1;28;20;10;70;0;0;3;121;0;0;0;0;0;True;True;True;True;True;True;True;True;True;False;False;False;True;True;True;True;False;False;False;False;False;False;False;False;True;True;True;True;True;True;True;True;-1;-1;-1;0;3;-1;-1;-1;-1;0;0;-1;-1;-1;-1;0;0;0;0;10;0;0;0;0;0;10503000;10503010;-1;10000000;-1;-1;-1;-1;-1;-1;-1;0;2;0;0;0;0;0;0;0;0;-1
5040;[Sorcery] Death Lightning;True;0;-1;4000;0;0;46;32;4000;0;-1;-1;-1;1;99;0;2;0;47;10;70;1;1;4;42;0;0;0;0;0;True;True;True;True;True;True;True;True;True;False;False;False;True;True;True;True;False;False;False;False;True;False;False;False;True;True;True;True;True;True;True;True;525670;525676;525674;0;3;-1;-1;-1;-1;1;0;-1;-1;-1;-1;46;42;0;1;22;0;0;0;0;0;10999999;-1;10999999;10000000;-1;10504000;10504050;-1;-1;-1;-1;0;0;1;0;2;2;0;0;0;0;-1
5100;[Sorcery] Oracle Bubbles;False;0;-1;4000;15;0;12;18;4000;0;-1;-1;-1;1;99;1;1;19;0;10;70;0;1;3;75;0;1;0;0;0;True;True;True;True;True;True;True;True;True;False;False;False;True;True;True;True;False;False;False;False;True;False;False;False;True;True;True;True;True;True;True;True;523220;523221;523224;0;3;-1;-1;-1;-1;1;0;-1;-1;-1;-1;12;23;0;0;0;0;0;0;0;0;10510000;10510050;10510099;11000000;10510001;10510051;-1;-1;-1;-1;-1;0;1;2;2;2;0;0;0;0;0;-1
5110;[Sorcery] Great Oracular Bubble;True;0;-1;4000;18;0;16;27;4000;0;-1;-1;-1;1;99;1;1;25;0;10;70;0;0;3;76;0;0;0;0;0;True;True;True;True;True;True;True;True;True;False;False;False;True;True;True;True;False;False;False;False;True;False;False;False;True;True;True;True;True;True;True;True;523230;523231;523234;0;3;-1;-1;-1;-1;0;0;-1;-1;-1;-1;16;35;0;0;0;0;0;0;0;0;10511000;10511050;-1;11000000;-1;-1;-1;-1;-1;-1;-1;0;1;0;0;0;0;0;0;0;0;-1
6000;[Incantation] Catch Flame;False;0;-1;5000;0;0;10;17;4027;0;-1;-1;-1;1;99;1;1;0;8;10;70;1;1;4;106;0;1;0;0;0;True;True;True;True;True;True;True;True;True;False;False;False;True;True;True;True;False;False;False;False;True;False;False;False;True;True;True;True;True;True;True;True;524100;-1;-1;0;0;-1;-1;-1;-1;0;0;-1;-1;-1;-1;0;0;0;0;0;0;0;0;0;0;10600000;10600001;10600002;12000130;10600005;-1;-1;-1;-1;-1;-1;0;0;0;0;0;0;0;0;0;0;-1
6001;[Incantation] O, Flame!;True;0;-1;5001;0;0;16;24;4028;0;-1;-1;-1;1;99;1;1;0;16;10;70;1;1;4;25;0;1;0;0;0;True;True;True;True;True;True;True;True;True;False;False;False;True;True;True;True;False;False;False;False;True;False;False;False;True;True;True;True;True;True;True;True;524110;524115;524114;0;0;-1;-1;-1;-1;0;0;-1;-1;-1;-1;16;31;0;0;21;0;0;0;0;0;10600100;10600150;10600155;12000130;10600105;-1;-1;-1;-1;-1;-1;0;1;2;0;0;0;0;0;0;0;-1
6010;[Incantation] Flame Sling;False;0;-1;5010;0;0;11;22;4021;0;-1;-1;-1;1;99;1;1;0;10;10;70;1;0;4;17;0;0;0;0;0;True;True;True;True;True;True;True;True;True;False;False;False;True;True;True;True;False;False;False;False;True;False;False;False;True;True;True;True;True;True;True;True;524009;524001;524005;0;0;-1;-1;-1;-1;0;0;-1;-1;-1;-1;11;29;0;0;0;0;0;0;0;0;10601000;10601050;-1;10000000;-1;-1;-1;-1;-1;-1;-1;0;1;0;0;0;0;0;0;0;0;-1
6020;[Incantation] Flame, Fall Upon Them;True;0;-1;5020;0;0;24;40;4110;0;-1;-1;-1;1;99;1;1;0;28;10;70;1;0;4;17;0;0;0;0;0;True;True;True;True;True;True;True;True;True;False;False;False;True;True;True;True;False;False;False;False;True;False;False;False;True;True;True;True;True;True;True;True;524020;524021;524025;0;0;-1;-1;-1;-1;0;0;-1;-1;-1;-1;24;52;0;0;21;0;0;0;0;0;10602000;10602050;-1;10000000;-1;-1;-1;-1;-1;-1;-1;0;1;0;0;0;0;0;0;0;0;-1
6030;[Incantation] Whirl, O Flame!;True;0;-1;5110;0;0;21;26;4110;0;-1;-1;-1;1;99;1;1;0;13;10;70;1;1;4;20;0;1;0;0;0;True;True;True;True;True;True;True;True;True;False;False;False;True;True;True;True;False;False;False;False;True;False;False;False;True;True;True;True;True;True;True;True;524520;524521;-1;0;0;-1;-1;-1;-1;0;0;-1;-1;-1;-1;21;34;0;0;21;0;0;0;0;0;10603000;10603050;10999999;11000200;10999999;-1;-1;-1;-1;-1;-1;2;2;0;1;0;0;0;0;0;0;-1
6040;[Incantation] Flame, Cleanse Me;True;0;-1;5530;0;0;14;10;4072;0;-1;-1;-1;1;99;2;1;0;12;10;70;1;0;4;31;0;0;0;0;0;True;True;True;True;True;True;True;True;True;False;False;False;True;True;True;True;False;False;False;False;True;False;True;False;True;True;True;True;True;True;True;True;524320;-1;-1;0;0;-1;-1;-1;-1;0;0;-1;-1;-1;-1;0;0;0;0;21;0;0;0;0;0;10604000;1604005;-1;20000000;-1;-1;-1;-1;-1;-1;-1;0;2;0;0;0;0;0;0;0;0;-1
6050;[Incantation] Flame, Grant Me Strength;True;0;-1;5620;0;0;28;16;4095;0;-1;-1;-1;2;99;0;1;0;15;10;70;1;0;4;31;0;0;0;0;0;True;True;True;True;True;True;True;True;True;False;False;False;True;True;True;True;False;False;False;False;True;False;True;False;True;True;True;True;True;True;True;True;524400;524401;-1;0;0;-1;-1;-1;-1;0;0;-1;-1;-1;-1;0;0;0;0;21;0;0;0;0;0;1605000;-1;-1;30000000;-1;-1;-1;-1;-1;-1;-1;0;0;0;0;0;0;0;0;0;0;-1
6060;[Incantation] Flame, Protect Me;True;0;-1;5630;0;0;30;20;4095;0;-1;-1;-1;2;99;0;1;0;24;10;70;1;0;4;31;0;0;0;0;0;True;True;True;True;True;True;True;True;True;False;False;False;True;True;True;True;False;False;False;False;True;False;True;False;True;True;True;True;True;True;True;True;524850;524851;-1;0;0;-1;-1;-1;-1;0;0;-1;-1;-1;-1;0;0;0;0;21;0;0;0;0;0;1606000;-1;-1;30000000;-1;-1;-1;-1;-1;-1;-1;0;0;0;0;0;0;0;0;0;0;-1
6100;[Incantation] Giantsflame Take Thee;True;0;-1;5012;0;0;32;43;4023;0;-1;-1;-1;1;99;1;2;0;30;10;70;1;0;4;17;0;0;0;0;0;True;True;True;True;True;True;True;True;True;False;False;False;True;True;True;True;False;False;False;False;True;False;False;False;True;True;True;True;True;True;True;True;524020;524021;524025;0;0;-1;-1;-1;-1;0;0;-1;-1;-1;-1;32;56;0;0;21;0;0;0;0;0;10610000;10610050;-1;10000000;-1;-1;-1;-1;-1;-1;-1;0;1;0;0;0;0;0;0;0;0;-1
6110;[Incantation] Flame of the Fell God;True;0;-1;5030;0;0;50;42;4137;0;-1;-1;-1;1;99;0;2;0;41;10;70;1;0;4;19;0;0;0;0;0;True;True;True;True;True;True;True;True;True;False;False;False;True;True;True;True;False;False;False;False;True;False;False;False;True;True;True;True;True;True;True;True;524080;-1;-1;0;0;-1;-1;-1;-1;0;0;-1;-1;-1;-1;0;0;0;0;21;0;0;0;0;0;10611000;-1;-1;10100000;-1;-1;-1;-1;-1;-1;-1;0;0;0;0;0;0;0;0;0;0;-1
6120;[Incantation] Burn, O Flame!;True;0;-1;5130;0;0;30;36;4024;0;-1;-1;-1;1;99;1;1;0;27;10;70;1;1;4;24;0;1;0;0;0;True;True;True;True;True;True;True;True;True;False;False;False;True;True;True;True;False;False;False;False;False;False;False;False;True;True;True;True;True;True;True;True;524030;524031;524035;0;0;-1;-1;-1;-1;1;0;-1;-1;-1;-1;30;47;0;1;21;0;1;1;0;0;10612000;10612005;10612006;12000000;10612050;10612055;10612056;10999999;10999999;-1;-1;2;2;2;2;2;2;0;1;0;0;-1
6210;[Incantation] Black Flame;True;0;-1;5011;0;0;18;25;4023;0;-1;-1;-1;1;99;1;1;0;20;10;70;1;0;4;17;0;0;0;0;0;True;True;True;True;True;True;True;True;True;False;False;False;True;True;True;True;False;False;False;False;True;False;False;False;True;True;True;True;True;True;True;True;524540;524541;524545;0;0;-1;-1;-1;-1;0;0;-1;-1;-1;-1;18;33;0;0;20;0;0;0;0;0;10621000;10621050;-1;10000000;-1;-1;-1;-1;-1;-1;-1;0;1;0;0;0;0;0;0;0;0;-1
6220;[Incantation] Surge, O Flame!;True;0;-1;5100;0;0;1;2;4088;0;-1;-1;-1;1;99;0;1;0;9;10;70;1;0;4;23;0;0;0;0;0;True;True;True;True;True;True;True;True;True;False;False;False;True;True;True;True;False;False;False;False;True;False;False;False;True;True;True;True;True;True;True;True;524050;-1;-1;0;0;-1;-1;-1;-1;0;0;-1;-1;-1;-1;0;0;0;0;21;0;0;0;0;0;10622000;-1;-1;11000200;-1;-1;-1;-1;-1;-1;-1;0;0;0;0;0;0;0;0;0;0;1
6230;[Incantation] Scouring Black Flame;True;0;-1;5120;0;0;27;29;4000;0;-1;-1;-1;1;99;1;1;0;28;10;70;1;1;4;22;0;1;0;0;0;True;True;True;True;True;True;True;True;True;False;False;False;True;True;True;True;False;False;False;False;True;False;False;False;True;True;True;True;True;True;True;True;524520;524521;-1;0;0;-1;-1;-1;-1;1;0;-1;-1;-1;-1;27;38;0;1;20;0;0;0;0;0;10623000;10623001;10623050;11000200;10623051;10999999;10999999;-1;-1;-1;-1;2;2;2;2;0;1;0;0;0;0;-1
6240;[Incantation] Black Flame Ritual;True;0;-1;5160;0;0;36;39;4024;0;-1;-1;-1;1;99;1;1;0;42;10;70;1;0;4;99;0;0;0;0;0;True;True;True;True;True;True;True;True;True;False;False;False;True;True;True;True;False;False;False;False;True;False;False;False;True;True;True;True;True;True;True;True;-1;-1;-1;0;0;-1;-1;-1;-1;0;0;-1;-1;-1;-1;36;51;0;0;20;0;0;0;0;0;10625000;10625050;-1;12000000;-1;-1;-1;-1;-1;-1;-1;0;0;0;0;0;0;0;0;0;0;-1
[...]
53244;;True;0;-1;5320;0;0;1;1;4138;0;-1;-1;-1;1;99;0;0;0;0;1;20;1;0;4;27;0;0;0;0;0;True;True;True;True;True;True;True;True;True;False;False;False;True;True;True;True;False;False;False;False;True;False;False;False;True;True;True;True;True;True;True;True;528110;528111;528115;0;0;-1;-1;-1;-1;0;0;-1;-1;-1;-1;1;1;0;0;24;0;0;0;0;0;10670100;-1;-1;11000000;-1;-1;-1;-1;-1;-1;-1;0;0;0;0;0;0;0;0;0;0;-1
53245;;True;0;-1;5670;0;0;1;1;4065;0;-1;-1;-1;1;99;2;0;0;0;1;20;1;2;4;86;0;0;0;0;0;True;True;True;True;True;True;True;True;True;False;False;False;True;True;True;True;False;False;False;False;True;False;False;False;True;True;True;True;True;True;True;True;528170;528171;-1;0;0;-1;-1;-1;-1;0;0;-1;-1;-1;-1;1;1;0;0;24;0;0;0;0;0;10676000;1676000;1676005;30000000;-1;-1;-1;-1;-1;-1;-1;2;0;2;0;0;0;0;0;0;0;-1
53246;;True;0;-1;4090;0;0;1;1;4060;0;-1;-1;-1;1;99;0;0;0;0;1;20;0;0;3;95;0;0;0;0;0;True;True;True;True;True;True;True;True;True;False;False;False;True;True;True;True;False;False;False;False;True;False;False;False;True;True;True;True;True;True;True;True;524495;-1;-1;0;3;-1;-1;-1;-1;0;0;-1;-1;-1;-1;1;1;0;0;8;0;0;0;0;0;10483000;-1;-1;10100010;-1;-1;-1;-1;-1;-1;-1;0;0;0;0;0;0;0;0;0;0;-1
53247;;True;0;-1;5340;0;0;1;1;4021;0;-1;-1;-1;1;99;1;0;0;0;1;20;1;0;4;93;0;0;0;0;0;True;True;True;True;True;True;True;True;True;False;False;False;True;True;True;True;False;False;False;False;False;False;False;False;True;True;True;True;True;True;True;True;-1;-1;-1;0;0;-1;-1;-1;-1;0;0;-1;-1;-1;-1;1;1;0;0;0;0;0;0;0;0;10631000;10631005;-1;11000000;-1;-1;-1;-1;-1;-1;-1;0;0;0;0;0;0;0;0;0;0;-1
53248;;True;0;-1;4000;0;0;1;1;4000;0;-1;-1;-1;0;99;1;0;0;0;1;20;1;0;4;122;0;0;0;0;0;True;True;True;True;True;True;True;True;True;False;False;False;True;True;True;True;False;False;False;False;True;False;False;False;True;True;True;True;True;True;True;True;-1;-1;-1;0;3;-1;-1;-1;-1;0;0;-1;-1;-1;-1;1;1;0;0;0;0;0;0;0;0;72400;10724000;-1;11000000;-1;-1;-1;-1;-1;-1;-1;0;2;0;0;0;0;0;0;0;0;-1
53250;;True;0;-1;4000;0;0;1;1;4000;0;-1;-1;-1;1;99;0;0;0;0;1;20;0;0;3;1;0;0;0;0;0;True;True;True;True;True;True;True;True;True;False;False;False;True;True;True;True;False;False;False;False;True;False;False;False;True;True;True;True;True;True;True;True;523000;523001;510010;0;3;-1;-1;-1;-1;0;0;-1;-1;-1;-1;1;1;0;0;0;0;0;0;0;0;10400000;-1;-1;10000100;-1;-1;-1;-1;-1;-1;-1;0;0;0;0;0;0;0;0;0;0;-1
53251;;True;0;-1;4100;0;0;1;1;4060;0;-1;-1;-1;1;99;1;0;0;0;1;20;0;0;3;107;0;1;0;0;0;True;True;True;True;True;True;True;True;True;False;False;False;True;True;True;True;False;False;False;False;True;False;False;False;True;True;True;True;True;True;True;True;523730;523731;-1;0;3;-1;-1;-1;-1;1;0;-1;-1;-1;-1;1;1;0;0;0;0;0;0;0;0;10437000;10437050;-1;11100000;10437003;10437053;-1;-1;-1;-1;-1;0;0;0;2;2;0;0;0;0;0;-1
53252;;True;0;-1;4600;0;0;1;1;4000;0;-1;-1;-1;2;99;0;0;0;0;1;20;0;0;3;11;0;0;0;0;0;True;True;True;True;True;True;True;True;True;False;True;False;True;True;True;True;False;False;False;False;True;False;False;False;True;True;True;True;True;True;True;True;523100;523101;-1;0;3;-1;-1;-1;-1;0;0;-1;-1;-1;-1;1;1;0;0;0;0;0;0;0;0;1446000;-1;-1;30010000;-1;-1;-1;-1;-1;-1;-1;0;0;0;0;0;0;0;0;0;0;-1
53260;;True;0;-1;5610;0;0;1;1;4033;0;-1;-1;-1;1;99;0;0;0;0;1;20;1;0;4;34;0;0;0;0;0;True;True;True;True;True;True;True;True;True;False;False;False;True;True;True;True;False;False;False;False;True;False;False;False;True;True;True;True;True;True;True;True;524880;524881;524884;0;0;-1;-1;-1;-1;0;0;-1;-1;-1;-1;1;1;0;0;0;0;0;0;0;0;10634000;-1;-1;30010000;-1;-1;-1;-1;-1;-1;-1;0;0;0;0;0;0;0;0;0;0;-1
53261;;True;0;-1;6700;0;0;1;1;3050;0;-1;-1;-1;1;99;0;0;0;0;1;20;1;0;4;35;0;0;0;0;0;True;True;True;True;True;True;True;True;True;False;False;False;True;True;True;True;False;False;False;False;True;False;False;False;True;True;True;True;True;True;True;True;525630;525631;525632;0;0;-1;-1;-1;-1;0;0;-1;-1;-1;-1;1;1;0;0;0;0;0;0;0;0;10660000;-1;-1;30000000;-1;-1;-1;-1;-1;-1;-1;0;0;0;0;0;0;0;0;0;0;-1
53270;;True;0;-1;4000;0;0;1;1;4000;0;-1;-1;-1;1;99;1;0;0;0;1;20;1;1;4;50;0;0;0;0;0;True;True;True;True;True;True;True;True;True;False;False;False;True;True;True;True;False;False;False;False;False;False;False;False;True;True;True;True;True;True;True;True;-1;530431;530440;0;3;-1;-1;-1;-1;0;0;-1;-1;-1;-1;1;1;0;0;25;0;0;0;0;0;10700110;10700100;10700101;11000020;-1;-1;-1;-1;-1;-1;-1;0;2;2;0;0;0;0;0;0;0;-1
53271;;True;0;-1;4000;0;0;1;1;4000;0;-1;-1;-1;1;99;1;0;0;0;1;20;1;0;4;55;0;0;0;0;0;True;True;True;True;True;True;True;True;True;False;False;False;True;True;True;True;False;False;False;False;False;False;False;False;True;True;True;True;True;True;True;True;-1;-1;-1;0;3;-1;-1;-1;-1;0;0;-1;-1;-1;-1;1;1;0;0;25;0;0;0;0;0;10709000;10709001;-1;11000000;-1;-1;-1;-1;-1;-1;-1;0;2;0;0;0;0;0;0;0;0;-1
53290;;True;0;-1;4000;0;0;1;1;4000;0;-1;-1;-1;1;99;1;0;0;0;1;20;0;1;3;103;0;1;0;0;0;True;True;True;True;True;True;True;True;True;False;False;False;True;True;True;True;False;False;False;False;True;False;False;False;True;True;True;True;True;True;True;True;523360;523361;523364;0;3;-1;-1;-1;-1;1;0;-1;-1;-1;-1;1;1;0;1;10;0;1;0;0;0;10500000;10500001;10500002;10000000;10500050;10500051;10500052;10500099;-1;-1;-1;0;2;2;1;2;2;2;0;0;0;-1
53291;;True;0;-1;4000;0;0;1;1;4000;0;-1;-1;-1;1;99;0;0;0;0;1;20;0;0;3;113;0;1;0;0;0;True;True;True;True;True;True;True;True;True;False;False;False;True;True;True;True;False;False;False;False;True;False;False;False;True;True;True;True;True;True;True;True;523350;523351;523354;0;3;-1;-1;-1;-1;0;0;-1;-1;-1;-1;1;1;0;0;0;0;0;0;0;0;10502000;-1;-1;12000000;10502050;-1;-1;-1;-1;-1;-1;0;0;0;1;0;0;0;0;0;0;-1
53330;;True;0;-1;4000;0;0;1;1;4000;0;-1;-1;-1;1;99;0;0;0;0;1;20;0;0;3;1;0;0;0;0;0;True;True;True;True;True;True;True;True;True;False;False;False;True;True;True;True;False;False;False;False;True;False;False;False;True;True;True;True;True;True;True;True;523000;523001;510010;0;3;-1;-1;-1;-1;0;0;-1;-1;-1;-1;1;1;0;0;0;0;0;0;0;0;10400000;-1;-1;10000100;-1;-1;-1;-1;-1;-1;-1;0;0;0;0;0;0;0;0;0;0;-1
53350;;True;0;-1;5320;0;0;1;1;4138;0;-1;-1;-1;1;99;0;0;0;0;1;20;1;0;4;27;0;0;0;0;0;True;True;True;True;True;True;True;True;True;False;False;False;True;True;True;True;False;False;False;False;True;False;False;False;True;True;True;True;True;True;True;True;528110;528111;528115;0;0;-1;-1;-1;-1;0;0;-1;-1;-1;-1;1;1;0;0;24;0;0;0;0;0;10670100;-1;-1;10000000;-1;-1;-1;-1;-1;-1;-1;0;0;0;0;0;0;0;0;0;0;-1
53390;;True;0;-1;4000;0;0;1;1;4000;0;-1;-1;-1;1;99;1;0;0;0;1;20;0;0;3;120;0;0;0;0;0;True;True;True;True;True;True;True;True;True;False;False;False;True;True;True;True;False;False;False;False;False;False;False;False;True;True;True;True;True;True;True;True;529970;529971;529974;0;3;-1;-1;-1;-1;1;0;-1;-1;-1;-1;1;1;0;1;11;0;0;0;0;0;10472100;10472101;-1;11000000;-1;10472150;10472151;-1;-1;-1;-1;0;2;0;0;1;2;0;0;0;0;-1
53510;;True;0;-1;5510;0;0;1;1;4034;0;-1;-1;-1;1;99;0;0;0;0;1;20;1;0;4;34;0;0;0;0;0;True;True;True;True;True;True;True;True;True;False;False;False;True;True;True;True;False;False;False;False;True;False;False;False;True;True;True;True;True;True;True;True;525000;525001;525004;0;0;-1;-1;-1;-1;0;0;-1;-1;-1;-1;1;1;0;0;0;0;0;0;0;0;10642100;-1;-1;30000000;-1;-1;-1;-1;-1;-1;-1;0;0;0;0;0;0;0;0;0;0;-1
53520;;True;0;-1;4120;0;0;1;1;4104;0;-1;-1;-1;1;99;1;0;0;0;1;20;0;0;3;5;0;0;0;0;0;True;True;True;True;True;True;True;True;True;False;False;False;True;True;True;True;False;False;False;False;True;False;False;False;True;True;True;True;True;True;True;True;526250;526264;526269;0;3;-1;-1;-1;-1;1;0;-1;-1;-1;-1;1;1;0;1;0;0;0;0;0;0;10438000;10438000;-1;10000010;-1;10438050;10438050;-1;-1;-1;-1;0;0;0;0;1;1;0;0;0;0;-1
53521;;True;0;-1;4120;0;0;1;1;4104;0;-1;-1;-1;1;99;1;0;0;0;1;20;0;0;3;5;0;0;0;0;0;True;True;True;True;True;True;True;True;True;False;False;False;True;True;True;True;False;False;False;False;True;False;False;False;True;True;True;True;True;True;True;True;526250;526264;526269;0;3;-1;-1;-1;-1;1;0;-1;-1;-1;-1;1;1;0;1;0;0;0;0;0;0;10438000;10438000;-1;10000010;-1;10438050;10438050;-1;-1;-1;-1;0;0;0;0;1;1;0;0;0;0;-1
53522;;True;0;-1;4040;0;0;1;1;4004;0;-1;-1;-1;1;99;0;0;0;0;1;20;0;0;3;95;0;0;0;0;0;True;True;True;True;True;True;True;True;True;False;False;False;True;True;True;True;False;False;False;False;True;False;False;False;True;True;True;True;True;True;True;True;523050;523051;-1;0;3;-1;-1;-1;-1;0;0;-1;-1;-1;-1;1;1;0;0;3;0;0;0;0;0;10430200;-1;-1;11000000;-1;-1;-1;-1;-1;-1;-1;0;0;0;0;0;0;0;0;0;0;-1
53523;;True;0;-1;4100;0;0;1;1;4060;0;-1;-1;-1;1;99;1;0;0;0;1;20;0;0;3;107;0;1;0;0;0;True;True;True;True;True;True;True;True;True;False;False;False;True;True;True;True;False;False;False;False;True;False;False;False;True;True;True;True;True;True;True;True;523730;523731;-1;0;3;-1;-1;-1;-1;1;0;-1;-1;-1;-1;1;1;0;0;0;0;0;0;0;0;10437000;10437050;-1;11100000;10437003;10437053;-1;-1;-1;-1;-1;0;0;0;2;2;0;0;0;0;0;-1
53524;;True;0;-1;4210;0;0;1;1;4102;0;-1;-1;-1;0;99;0;0;0;0;1;20;0;0;3;80;0;0;0;0;0;True;True;True;True;True;True;True;True;True;False;False;False;True;True;True;True;False;False;False;False;True;False;False;False;True;True;True;True;True;True;True;True;523750;523751;523752;0;3;-1;-1;-1;-1;0;0;-1;-1;-1;-1;1;1;0;0;0;0;0;0;0;0;44400;44401;44405;12000130;44406;44407;44408;-1;-1;-1;-1;0;0;0;0;0;0;0;0;0;0;-1
53560;;True;0;-1;5001;0;0;1;1;4028;0;-1;-1;-1;1;99;1;0;0;0;1;20;1;1;4;25;0;1;0;0;0;True;True;True;True;True;True;True;True;True;False;False;False;True;True;True;True;False;False;False;False;True;False;False;False;True;True;True;True;True;True;True;True;524110;524115;524114;0;0;-1;-1;-1;-1;0;0;-1;-1;-1;-1;1;1;0;0;21;0;0;0;0;0;10600100;10600150;10600155;12000130;10600105;-1;-1;-1;-1;-1;-1;0;1;2;0;0;0;0;0;0;0;-1
53561;;True;0;-1;5030;0;0;1;1;4137;0;-1;-1;-1;1;99;0;0;0;0;1;20;1;0;4;19;0;0;0;0;0;True;True;True;True;True;True;True;True;True;False;False;False;True;True;True;True;False;False;False;False;True;False;False;False;True;True;True;True;True;True;True;True;524080;-1;-1;0;0;-1;-1;-1;-1;0;0;-1;-1;-1;-1;1;1;0;0;21;0;0;0;0;0;10611000;-1;-1;11100000;-1;-1;-1;-1;-1;-1;-1;0;0;0;0;0;0;0;0;0;0;-1
53590;;True;0;-1;4200;0;0;1;1;4061;0;-1;-1;-1;0;99;0;0;0;0;1;20;0;0;3;10;0;0;0;0;0;True;True;True;True;True;True;True;True;True;False;False;False;True;True;True;True;False;False;False;False;True;False;False;False;True;True;True;True;True;True;True;True;523740;523741;523742;0;3;-1;-1;-1;-1;0;0;-1;-1;-1;-1;1;1;0;0;2;0;0;0;0;0;44500;44501;44505;11000021;44506;-1;-1;-1;-1;-1;-1;0;0;1;1;0;0;0;0;0;0;-1
53610;;True;0;-1;4210;0;0;1;1;4102;0;-1;-1;-1;0;99;0;0;0;0;1;20;0;0;3;80;0;0;0;0;0;True;True;True;True;True;True;True;True;True;False;False;False;True;True;True;True;False;False;False;False;True;False;False;False;True;True;True;True;True;True;True;True;523750;523751;523752;0;3;-1;-1;-1;-1;0;0;-1;-1;-1;-1;1;1;0;0;2;0;0;0;0;0;44400;44401;44405;12000130;44406;44407;44408;-1;-1;-1;-1;0;0;0;0;0;0;0;0;0;0;-1
53630;;True;0;-1;5510;0;0;1;1;4034;0;-1;-1;-1;1;99;0;0;0;0;1;20;1;0;4;34;0;0;0;0;0;True;True;True;True;True;True;True;True;True;False;False;False;True;True;True;True;False;False;False;False;True;False;False;False;True;True;True;True;True;True;True;True;525010;525011;525004;0;0;-1;-1;-1;-1;0;0;-1;-1;-1;-1;1;1;0;0;0;0;0;0;0;0;10642200;-1;-1;11000000;-1;-1;-1;-1;-1;-1;-1;0;0;0;0;0;0;0;0;0;0;-1
53720;;True;0;-1;4000;0;0;1;1;4000;0;-1;-1;-1;1;99;1;0;0;0;1;20;1;0;4;26;0;0;0;0;0;True;True;True;True;True;True;True;True;True;False;False;False;True;True;True;True;False;False;False;False;True;False;False;False;True;True;True;True;True;True;True;True;-1;-1;-1;0;3;-1;-1;-1;-1;0;0;-1;-1;-1;-1;1;1;0;0;0;0;0;0;0;0;10722000;10722050;-1;11000000;-1;-1;-1;-1;-1;-1;-1;0;0;0;0;0;0;0;0;0;0;-1
53750;;True;0;-1;4040;0;0;1;1;4004;0;-1;-1;-1;1;99;0;0;0;0;1;20;0;0;3;8;0;0;0;0;0;True;True;True;True;True;True;True;True;True;False;False;False;True;True;True;True;False;False;False;False;True;False;False;False;True;True;True;True;True;True;True;True;523040;523041;-1;0;3;-1;-1;-1;-1;0;0;-1;-1;-1;-1;1;1;0;0;3;0;0;0;0;0;10430100;-1;-1;10000000;-1;-1;-1;-1;-1;-1;-1;0;0;0;0;0;0;0;0;0;0;-1
53751;;True;0;-1;4100;0;0;1;1;4060;0;-1;-1;-1;1;99;1;0;0;0;1;20;0;1;3;118;0;1;0;0;0;True;True;True;True;True;True;True;True;True;False;False;False;True;True;True;True;False;False;False;False;True;False;False;False;True;True;True;True;True;True;True;True;523090;523091;-1;0;3;-1;-1;-1;-1;0;0;-1;-1;-1;-1;1;1;0;0;3;0;0;0;0;0;10439000;10439002;10439050;10000000;10439052;-1;-1;-1;-1;-1;-1;0;1;0;2;0;0;0;0;0;0;-1
53760;;True;0;-1;4000;0;0;1;1;4000;0;-1;-1;-1;1;99;1;0;0;0;1;20;0;0;3;121;0;0;0;0;0;True;True;True;True;True;True;True;True;True;False;False;False;True;True;True;True;False;False;False;False;False;False;False;False;True;True;True;True;True;True;True;True;-1;-1;-1;0;3;-1;-1;-1;-1;0;0;-1;-1;-1;-1;1;1;0;0;10;0;0;0;0;0;10503000;10503010;-1;10000000;-1;-1;-1;-1;-1;-1;-1;0;2;0;0;0;0;0;0;0;0;-1
53770;;True;0;-1;4000;0;0;1;1;4000;0;-1;-1;-1;1;99;0;0;0;0;1;20;1;0;4;26;0;0;0;0;0;True;True;True;True;True;True;True;True;True;False;False;False;True;True;True;True;False;False;False;False;True;False;False;False;True;True;True;True;True;True;True;True;525540;-1;-1;0;0;-1;-1;-1;-1;0;0;-1;-1;-1;-1;1;1;0;0;0;0;0;0;0;0;10721000;-1;-1;11000000;-1;-1;-1;-1;-1;-1;-1;0;0;0;0;0;0;0;0;0;0;-1
53800;;True;0;-1;4070;0;0;1;1;4000;0;-1;-1;-1;1;99;1;0;0;0;1;20;0;1;3;113;0;1;0;0;0;True;True;True;True;True;True;True;True;True;False;False;False;True;True;True;True;False;False;False;False;True;False;False;False;True;True;True;True;True;True;True;True;523000;523001;-1;0;3;-1;-1;-1;-1;1;0;-1;-1;-1;-1;1;1;0;1;0;0;0;0;0;0;10409000;10409001;10409002;11000020;10409050;10409051;10409052;-1;-1;-1;-1;0;2;2;1;2;2;0;0;0;0;-1
53801;;True;0;-1;4090;0;0;1;1;4060;0;-1;-1;-1;1;99;1;0;0;0;1;20;0;0;3;107;0;0;0;0;0;True;True;True;True;True;True;True;True;True;False;False;False;True;True;True;True;False;False;False;False;True;False;False;False;True;True;True;True;True;True;True;True;523900;523901;-1;0;3;-1;-1;-1;-1;0;0;-1;-1;-1;-1;1;1;0;0;15;0;0;0;0;0;10422000;10422050;-1;10000000;-1;-1;-1;-1;-1;-1;-1;0;1;0;0;0;0;0;0;0;0;-1
53802;;True;0;-1;4000;0;0;1;1;4000;0;-1;-1;-1;1;99;0;0;0;0;1;20;0;0;3;83;0;0;0;0;0;True;True;True;True;True;True;True;True;True;False;False;False;True;True;True;True;False;False;False;False;True;False;False;False;True;True;True;True;True;True;True;True;-1;-1;-1;0;3;-1;-1;-1;-1;0;0;-1;-1;-1;-1;1;1;0;0;3;0;0;0;0;0;10460000;-1;-1;10000100;-1;-1;-1;-1;-1;-1;-1;0;0;0;0;0;0;0;0;0;0;-1
53803;;True;0;-1;4020;0;0;1;1;4006;0;-1;-1;-1;1;99;1;0;0;0;1;20;0;0;3;2;0;0;0;0;0;True;True;True;True;True;True;True;True;True;False;False;False;True;True;True;True;False;False;False;False;True;False;False;False;True;True;True;True;True;True;True;True;523200;523201;523204;0;3;-1;-1;-1;-1;0;0;-1;-1;-1;-1;1;1;0;0;12;0;0;0;0;0;10462000;10462050;-1;11000120;-1;-1;-1;-1;-1;-1;-1;0;1;0;0;0;0;0;0;0;0;-1
53804;;True;0;-1;4000;0;0;1;1;4000;0;-1;-1;-1;1;99;0;0;0;0;1;20;0;0;3;83;0;0;0;0;0;True;True;True;True;True;True;True;True;True;False;False;False;True;True;True;True;False;False;False;False;True;False;False;False;True;True;True;True;True;True;True;True;-1;-1;-1;0;3;-1;-1;-1;-1;0;0;-1;-1;-1;-1;1;1;0;0;3;0;0;0;0;0;10460000;-1;-1;10000100;-1;-1;-1;-1;-1;-1;-1;0;0;0;0;0;0;0;0;0;0;-1
53805;;True;0;-1;4020;0;0;1;1;4006;0;-1;-1;-1;1;99;1;0;0;0;1;20;0;0;3;2;0;0;0;0;0;True;True;True;True;True;True;True;True;True;False;False;False;True;True;True;True;False;False;False;False;True;False;False;False;True;True;True;True;True;True;True;True;523200;523201;523204;0;3;-1;-1;-1;-1;0;0;-1;-1;-1;-1;1;1;0;0;12;0;0;0;0;0;10462000;10462050;-1;10000200;-1;-1;-1;-1;-1;-1;-1;0;1;0;0;0;0;0;0;0;0;-1
53820;;True;0;-1;5000;0;0;1;1;4027;0;-1;-1;-1;1;99;1;0;0;0;1;20;1;1;4;106;0;1;0;0;0;True;True;True;True;True;True;True;True;True;False;False;False;True;True;True;True;False;False;False;False;True;False;False;False;True;True;True;True;True;True;True;True;524100;-1;-1;0;0;-1;-1;-1;-1;0;0;-1;-1;-1;-1;1;1;0;0;21;0;0;0;0;0;10600000;10600001;10600002;12000130;10600005;-1;-1;-1;-1;-1;-1;0;0;0;0;0;0;0;0;0;0;-1
53821;;True;0;-1;5130;0;0;1;1;4024;0;-1;-1;-1;1;99;1;0;0;0;1;20;1;1;4;24;0;1;0;0;0;True;True;True;True;True;True;True;True;True;False;False;False;True;True;True;True;False;False;False;False;False;False;False;False;True;True;True;True;True;True;True;True;524030;524031;524035;0;0;-1;-1;-1;-1;1;0;-1;-1;-1;-1;1;1;0;1;21;0;1;1;0;0;10612000;10612005;10612006;11000000;10612050;10612055;10612056;10999999;10999999;-1;-1;2;2;2;2;2;2;0;1;0;0;-1
53822;;True;0;-1;5100;0;0;1;1;4088;0;-1;-1;-1;1;99;0;0;0;0;1;20;1;0;4;23;0;0;0;0;0;True;True;True;True;True;True;True;True;True;False;False;False;True;True;True;True;False;False;False;False;True;False;False;False;True;True;True;True;True;True;True;True;524050;-1;-1;0;0;-1;-1;-1;-1;0;0;-1;-1;-1;-1;1;1;0;0;21;0;0;0;0;0;10622000;-1;-1;11000200;-1;-1;-1;-1;-1;-1;-1;0;0;0;0;0;0;0;0;0;0;-1
53830;;True;0;-1;5110;0;0;1;1;4110;0;-1;-1;-1;1;99;1;0;0;0;1;20;1;1;4;20;0;1;0;0;0;True;True;True;True;True;True;True;True;True;False;False;False;True;True;True;True;False;False;False;False;True;False;False;False;True;True;True;True;True;True;True;True;524520;524521;-1;0;0;-1;-1;-1;-1;0;0;-1;-1;-1;-1;1;1;0;0;21;0;0;0;0;0;10603000;10603050;10999999;11000200;10999999;-1;-1;-1;-1;-1;-1;2;2;0;1;0;0;0;0;0;0;-1
53850;;True;0;-1;4000;0;0;1;1;4000;0;-1;-1;-1;1;99;0;0;0;0;1;20;0;0;3;1;0;0;0;0;0;True;True;True;True;True;True;True;True;True;False;False;False;True;True;True;True;False;False;False;False;True;False;False;False;True;True;True;True;True;True;True;True;523030;523031;-1;0;3;-1;-1;-1;-1;0;0;-1;-1;-1;-1;1;1;0;0;0;0;0;0;0;0;10440000;-1;-1;10000100;-1;-1;-1;-1;-1;-1;-1;0;0;0;0;0;0;0;0;0;0;-1
53851;;True;0;-1;4000;0;0;1;1;4000;0;-1;-1;-1;1;99;0;0;0;0;1;20;0;0;3;113;0;1;0;0;0;True;True;True;True;True;True;True;True;True;False;False;False;True;True;True;True;False;False;False;False;True;False;False;False;True;True;True;True;True;True;True;True;523880;523881;523875;0;3;-1;-1;-1;-1;0;0;-1;-1;-1;-1;1;1;0;0;0;0;0;0;0;0;10442000;-1;-1;11000000;10442050;-1;-1;-1;-1;-1;-1;0;0;0;1;0;0;0;0;0;0;-1
53852;;True;0;-1;4200;0;0;1;1;4000;0;-1;-1;-1;1;99;1;0;0;0;1;20;0;1;3;81;0;0;0;0;0;True;True;True;True;True;True;True;True;True;False;False;False;True;True;True;True;False;False;False;False;False;False;False;False;True;True;True;True;True;True;True;True;-1;-1;-1;0;3;-1;-1;-1;-1;0;0;-1;-1;-1;-1;1;1;0;0;9;0;0;0;0;0;10490090;10490091;10490092;12000000;-1;-1;-1;-1;-1;-1;-1;0;0;0;0;0;0;0;0;0;0;-1
53860;;True;0;-1;5340;0;0;1;1;4021;0;-1;-1;-1;1;99;0;0;0;0;1;20;1;0;4;94;0;0;0;0;0;True;True;True;True;True;True;True;True;True;False;False;False;True;True;True;True;False;False;False;False;False;False;False;False;True;True;True;True;True;True;True;True;-1;-1;-1;0;0;-1;-1;-1;-1;0;0;-1;-1;-1;-1;1;1;0;0;0;0;0;0;0;0;10630000;-1;-1;12000130;-1;-1;-1;-1;-1;-1;-1;0;0;0;0;0;0;0;0;0;0;-1
53861;;True;0;-1;4000;0;0;1;1;4000;0;-1;-1;-1;1;99;0;0;0;0;1;20;1;0;4;26;0;0;0;0;0;True;True;True;True;True;True;True;True;True;False;False;False;True;True;True;True;False;False;False;False;True;False;False;False;True;True;True;True;True;True;True;True;525540;-1;-1;0;3;-1;-1;-1;-1;0;0;-1;-1;-1;-1;1;1;0;0;0;0;0;0;0;0;10721000;-1;-1;11000000;-1;-1;-1;-1;-1;-1;-1;0;0;0;0;0;0;0;0;0;0;-1
53900;;True;0;-1;4000;0;0;1;1;4000;0;-1;-1;-1;1;99;1;0;0;0;1;20;1;1;4;74;0;1;0;0;0;True;True;True;True;True;True;True;True;True;False;False;False;True;True;True;True;False;False;False;False;True;False;False;False;True;True;True;True;True;True;True;True;-1;-1;-1;0;0;-1;-1;-1;-1;1;0;-1;-1;-1;-1;1;1;0;1;0;0;0;0;0;0;10720000;10720001;10720002;10000000;10720003;10720004;10720005;-1;-1;-1;-1;0;2;2;2;2;2;0;0;0;0;-1
999999999;;True;0;-1;4000;0;0;7;0;4000;0;-1;-1;-1;1;99;0;1;0;0;10;50;1;0;4;34;0;0;0;0;0;True;True;True;True;True;True;True;True;True;False;False;False;True;True;True;True;False;False;False;False;True;False;False;False;True;True;True;True;True;True;True;True;524860;524861;524844;0;3;-1;-1;-1;-1;0;0;-1;-1;-1;-1;0;0;0;0;0;0;0;0;0;0;10790300;-1;-1;-1;-1;-1;-1;-1;-1;-1;-1;0;0;0;0;0;0;0;0;0;0;-1